{
  "resourceType": "Bundle",
  "id": "Bundle-Example-Bundle-Document-0ddcb465",
  "identifier": {
    "system": "http://www.digitalware.com.co/salud/fhir/identifier/documents",
    "value": "r909022ir"
  },
  "type": "document",
  "timestamp": "2021-02-23T10:00:23-05:00",
  "entry": [
    {
      "fullUrl": "http://127.0.0.1:7000/fhir/Composition/Example-Document-imagingreport-y787434ir",
      "resource": {
        "resourceType": "Composition",
        "id": "Example-Document-imagingreport-y787434ir",
        "text": {
          "status": "generated",
          "div": "<div xmlns=\"http://www.w3.org/1999/xhtml\"><p><b>Generated Narrative</b></p><p><b>identifier</b>: id: r909022ir</p><p><b>status</b>: final</p><p><b>type</b>: <span title=\"Codes: {http://loinc.org 18748-4}\">Diagnostic imaging study</span></p><p><b>category</b>: <span title=\"Codes: {http://loinc.org 47045-0}\">Study report Document</span></p><p><b>encounter</b>: <a href=\"#Encounter_Example-Encounter-963y1945\">See above (Encounter/Example-Encounter-963y1945)</a></p><p><b>date</b>: Feb 23, 2021 10:00:23 AM</p><p><b>author</b>: <a href=\"#Practitioner_Example-Practitioner-746746379d\">See above (Practitioner/Example-Practitioner-746746379d)</a></p><p><b>title</b>: Reporte Diagnostico de Imagenología</p><p><b>confidentiality</b>: N</p><h3>Attesters</h3><table class=\"grid\"><tr><td>-</td><td><b>Mode</b></td><td><b>Party</b></td></tr><tr><td>*</td><td>professional</td><td><a href=\"#Practitioner_Example-Practitioner-746746379d\">See above (Practitioner/Example-Practitioner-746746379d)</a></td></tr></table><p><b>custodian</b>: <a href=\"#Organization_Example-Organization-213134sd15148f\">See above (Organization/Example-Organization-213134sd15148f)</a></p></div>"
        },
        "identifier": {
          "system": "http://www.digitalware.com.co/salud/fhir/identifier/documents",
          "value": "r909022ir"
        },
        "status": "final",
        "type": {
          "coding": [
            {
              "system": "http://loinc.org",
              "code": "18748-4",
              "display": "Diagnostic imaging study"
            }
          ]
        },
        "category": [
          {
            "coding": [
              {
                "system": "http://loinc.org",
                "code": "47045-0",
                "display": "Study report Document"
              }
            ]
          }
        ],
        "subject": {
          "reference": "Patient/Example-Patient-87356d0d"
        },
        "encounter": {
          "reference": "Encounter/Example-Encounter-963y1945"
        },
        "date": "2021-02-23T10:00:23-05:00",
        "author": [
          {
            "reference": "Practitioner/Example-Practitioner-746746379d"
          }
        ],
        "title": "Reporte Diagnostico de Imagenología",
        "confidentiality": "N",
        "attester": [
          {
            "mode": "professional",
            "party": {
              "reference": "Practitioner/Example-Practitioner-746746379d"
            }
          }
        ],
        "custodian": {
          "reference": "Organization/Example-Organization-213134sd15148f"
        },
        "section": [
          {
            "title": "Resultados de Imagenes",
            "code": {
              "coding": [
                {
                  "system": "http://loinc.org",
                  "code": "30954-2",
                  "display": "Relevant diagnostic tests"
                }
              ]
            },
            "entry": [
              {
                "reference": "DiagnosticReport/Example-DiagnosticReport-Imaging-u584i"
              },
              {
                "reference": "ImagingStudy/Example-ImagingStudy-1.2.840.10008.86767.4545.87878.323"
              }
            ]
          }
        ]
      }
    },
    {
      "fullUrl": "http://127.0.0.1:7000/fhir/Patient/Example-Patient-87356d0d",
      "resource": {
        "resourceType": "Patient",
        "id": "Example-Patient-87356d0d",
        "text": {
          "status": "generated",
          "div": "<div xmlns=\"http://www.w3.org/1999/xhtml\"><h1>SEGMENTO NARRATIVO</h1></div>"
        },
        "extension": [
          {
            "id": "GenderIdentity",
            "url": "https://digitalware-klinic.github.io/fhir/indisa/StructureDefinition-GenderIdentity",
            "valueCodeableConcept": {
              "coding": [
                {
                  "system": "http://snomed.info/sct",
                  "code": "703117000",
                  "display": "Femenino"
                }
              ]
            }
          },
          {
            "id": "BirthPlace",
            "url": "https://digitalware-klinic.github.io/fhir/indisa/StructureDefinition-BirthPlace",
            "valueAddress": {
              "city": "Santiago de Chile",
              "state": "Region Metropolitana",
              "country": "Chile"
            }
          },
          {
            "id": "Nationality",
            "extension": [
              {
                "id": "code",
                "url": "code",
                "valueCodeableConcept": {
                  "coding": [
                    {
                      "system": "https://www.iso.org/iso-3166-country-codes.html",
                      "code": "CL",
                      "display": "Chile"
                    }
                  ]
                }
              }
            ],
            "url": "https://digitalware-klinic.github.io/fhir/indisa/StructureDefinition-Nationality"
          },
          {
            "id": "PatientEthnicity",
            "url": "https://digitalware-klinic.github.io/fhir/indisa/StructureDefinition-PatientEthnicity",
            "valueCodeableConcept": {
              "coding": [
                {
                  "system": "http://deis.cl/fhir/PueblosIndigenasMinsalDecreto643",
                  "code": "01",
                  "display": "Mapuche"
                }
              ]
            }
          },
          {
            "id": "PatientPopulationGroup",
            "url": "https://digitalware-klinic.github.io/fhir/indisa/StructureDefinition-PatientPopulationGroup",
            "valueCodeableConcept": {
              "coding": [
                {
                  "system": "https://digitalware-klinic.github.io/fhir/indisa/CodeSystem-PopulationGroup",
                  "code": "01",
                  "display": "Indigenas"
                }
              ]
            }
          },
          {
            "id": "Disability",
            "url": "https://digitalware-klinic.github.io/fhir/indisa/StructureDefinition-Disability",
            "valueCodeableConcept": {
              "coding": [
                {
                  "system": "http://snomed.info/sct",
                  "code": "15929741000119101",
                  "display": "disfunción de la mano derecha"
                }
              ]
            }
          },
          {
            "id": "EducationalLevelChile",
            "url": "https://digitalware-klinic.github.io/fhir/indisa/StructureDefinition-EducationalLevelChile",
            "valueCodeableConcept": {
              "coding": [
                {
                  "system": "https://digitalware-klinic.github.io/fhir/indisa/CodeSystem-EducationalLevelChile",
                  "code": "02",
                  "display": "Basica"
                }
              ]
            }
          },
          {
            "id": "Ocupation",
            "url": "https://digitalware-klinic.github.io/fhir/indisa/StructureDefinition-Ocupation",
            "valueCodeableConcept": {
              "coding": [
                {
                  "system": "https://digitalware-klinic.github.io/fhir/indisa/StructureDefinition-Ocupation",
                  "code": "15",
                  "display": "Ama de casa"
                }
              ]
            }
          },
          {
            "id": "EmployerOrganization",
            "url": "https://digitalware-klinic.github.io/fhir/indisa/StructureDefinition-EmployerOrganization",
            "valueString": "Papeleria el Sol"
          },
          {
            "id": "NewBorn",
            "url": "https://digitalware-klinic.github.io/fhir/indisa/StructureDefinition-NewBorn",
            "valueBoolean": false
          },
          {
            "id": "Religion",
            "url": "https://digitalware-klinic.github.io/fhir/indisa/StructureDefinition-Religion",
            "valueCodeableConcept": {
              "coding": [
                {
                  "system": "http://terminology.hl7.org/CodeSystem/v3-ReligiousAffiliation",
                  "code": "1041",
                  "display": "Roman Catholic Church"
                }
              ]
            }
          },
          {
            "id": "CulturalGroup",
            "url": "https://digitalware-klinic.github.io/fhir/indisa/StructureDefinition-CulturalGroup",
            "valueCodeableConcept": {
              "coding": [
                {
                  "system": "https://digitalware-klinic.github.io/fhir/indisa/CodeSystem-CulturalGroup",
                  "code": "Indio Americano",
                  "display": "1002-5"
                }
              ]
            }
          }
        ],
        "identifier": [
          {
            "use": "official",
            "type": {
              "coding": [
                {
                  "system": "http://terminology.hl7.org/CodeSystem/v2-0203",
                  "code": "NNCHL",
                  "display": "National Person Identifier Chile"
                },
                {
                  "system": "http://registrocivil.cl/RUN",
                  "code": "RUN",
                  "display": "Rol Único Nacional"
                }
              ]
            },
            "value": "347827348"
          },
          {
            "use": "usual",
            "type": {
              "coding": [
                {
                  "system": "http://terminology.hl7.org/CodeSystem/v2-0203",
                  "code": "MR",
                  "display": "Medical Record Number"
                }
              ]
            },
            "system": "https://www.digitalware.com.co/salud/fhir/patient-id",
            "value": "HC-6ef0a6d7"
          }
        ],
        "active": true,
        "name": [
          {
            "use": "official",
            "_family": {
              "extension": [
                {
                  "id": "fathers-family",
                  "url": "http://hl7.org/fhir/StructureDefinition/humanname-fathers-family",
                  "valueString": "Jake"
                },
                {
                  "id": "mothers-family",
                  "url": "http://hl7.org/fhir/StructureDefinition/humanname-mothers-family",
                  "valueString": "Jofré"
                }
              ]
            },
            "given": [
              "Maria",
              "Victoria"
            ]
          },
          {
            "use": "nickname",
            "text": "Maria Jake"
          }
        ],
        "telecom": [
          {
            "system": "phone",
            "value": "+56(2)1111-1111",
            "use": "home"
          },
          {
            "system": "phone",
            "value": "+56(2)2222-2222",
            "use": "mobile"
          },
          {
            "system": "email",
            "value": "jjmaria@example.com"
          }
        ],
        "gender": "female",
        "birthDate": "1975-08-14",
        "deceasedBoolean": false,
        "address": [
          {
            "use": "home",
            "text": "Eliodoro Yáñez NNN, depto XX, Providencia",
            "city": "Providencia",
            "state": "Región Metropolitana",
            "postalCode": "5555555",
            "country": "Chile"
          }
        ],
        "maritalStatus": {
          "coding": [
            {
              "system": "http://terminology.hl7.org/CodeSystem/v3-MaritalStatus",
              "code": "M",
              "display": "Married"
            }
          ]
        },
        "contact": [
          {
            "extension": [
              {
                "id": "person-id",
                "url": "https://digitalware-klinic.github.io/fhir/indisa/StructureDefinition-person-id",
                "valueIdentifier": {
                  "use": "official",
                  "type": {
                    "coding": [
                      {
                        "system": "http://terminology.hl7.org/CodeSystem/v2-0203",
                        "code": "MR",
                        "display": "Medical record number"
                      },
                      {
                        "system": "http://registrocivil.cl/RUN",
                        "code": "RUN",
                        "display": "Rol Único Nacional"
                      }
                    ]
                  },
                  "value": "134293887929"
                }
              }
            ],
            "relationship": [
              {
                "coding": [
                  {
                    "system": "http://terminology.hl7.org/CodeSystem/v2-0131",
                    "code": "C",
                    "display": "Emergency Contact"
                  },
                  {
                    "system": "http://snomed.info/sct",
                    "code": "66839005",
                    "display": "padre"
                  }
                ]
              }
            ],
            "name": {
              "text": "Jorge Jake"
            },
            "telecom": [
              {
                "system": "phone",
                "value": "+56(2)2222-2222",
                "use": "mobile"
              },
              {
                "system": "email",
                "value": "jjorge@example.com"
              }
            ],
            "address": {
              "use": "home",
              "text": "Eliodoro Yáñez NNN, depto XX, Providencia",
              "city": "Providencia",
              "state": "Región Metropolitana",
              "postalCode": "5555555",
              "country": "Chile"
            }
          }
        ]
      }
    },
    {
      "fullUrl": "http://127.0.0.1:7000/fhir/Encounter/Example-Encounter-963y1945",
      "resource": {
        "resourceType": "Encounter",
        "id": "Example-Encounter-963y1945",
        "text": {
          "status": "generated",
          "div": "<div xmlns=\"http://www.w3.org/1999/xhtml\"><h1>SEGMENTO NARRATIVO</h1></div>"
        },
        "extension": [
          {
            "id": "RateModality",
            "url": "https://digitalware-klinic.github.io/fhir/indisa/StructureDefinition-RateModality",
            "valueCoding": {
              "system": "https://digitalware-klinic.github.io/fhir/indisa/CodeSystem-RatesModalityINDISA",
              "code": "cerrada",
              "display": "cerrada/preferent"
            }
          }
        ],
        "identifier": [
          {
            "use": "official",
            "system": "https://example.org/encounter-identifiers",
            "value": "56386090"
          }
        ],
        "status": "finished",
        "statusHistory": [
          {
            "status": "arrived",
            "period": {
              "start": "2021-01-21T07:00:00-05:00",
              "end": "2021-01-21T07:10:00-05:00"
            }
          },
          {
            "status": "in-progress",
            "period": {
              "start": "2021-01-21T07:10:00-05:00",
              "end": "2021-01-23T10:45:00-05:00"
            }
          },
          {
            "status": "finished",
            "period": {
              "start": "2021-01-23T10:45:00-05:00",
              "end": "2021-01-23T11:00:00-05:00"
            }
          }
        ],
        "class": {
          "system": "http://terminology.hl7.org/CodeSystem/v3-ActCode",
          "code": "IMP",
          "display": "inpatient encounter"
        },
        "serviceType": {
          "coding": [
            {
              "system": "http://terminology.hl7.org/CodeSystem/service-type",
              "code": "410",
              "display": "Pregnancy"
            }
          ]
        },
        "priority": {
          "coding": [
            {
              "system": "http://terminology.hl7.org/CodeSystem/v3-ActPriority",
              "code": "EL",
              "display": "elective"
            }
          ]
        },
        "subject": {
          "reference": "Patient/Example-Patient-87356d0d"
        },
        "participant": [
          {
            "type": [
              {
                "coding": [
                  {
                    "system": "http://terminology.hl7.org/CodeSystem/v3-ParticipationType",
                    "code": "CON",
                    "display": "Consultant"
                  }
                ]
              }
            ]
          }
        ],
        "period": {
          "start": "2021-01-21T07:00:00-05:00",
          "end": "2021-01-23T11:00:00-05:00"
        },
        "reasonCode": [
          {
            "coding": [
              {
                "system": "http://snomed.info/sct",
                "code": "888003",
                "display": "Efecto fetal o neonatal de la pérdida de sangre materna"
              }
            ]
          }
        ],
        "hospitalization": {
          "preAdmissionIdentifier": {
            "value": "6037c96f1b3e"
          },
          "admitSource": {
            "coding": [
              {
                "system": "http://terminology.hl7.org/CodeSystem/admit-source",
                "code": "outp",
                "display": "From outpatient department"
              }
            ]
          },
          "specialCourtesy": [
            {
              "coding": [
                {
                  "system": "http://terminology.hl7.org/CodeSystem/v3-EncounterSpecialCourtesy",
                  "code": "VIP",
                  "display": "very important person"
                }
              ]
            }
          ],
          "dischargeDisposition": {
            "coding": [
              {
                "system": "https://digitalware-klinic.github.io/fhir/indisa/CodeSystem-DischargeDisposition",
                "code": "home",
                "display": "home"
              }
            ]
          }
        },
        "serviceProvider": {
          "reference": "Organization/Example-Organization-213134sd15148f"
        }
      }
    },
    {
      "fullUrl": "http://127.0.0.1:7000/fhir/Practitioner/Example-Practitioner-746746379d",
      "resource": {
        "resourceType": "Practitioner",
        "id": "Example-Practitioner-746746379d",
        "text": {
          "status": "generated",
          "div": "<div xmlns=\"http://www.w3.org/1999/xhtml\"><h1>SEGMENTO NARRATIVO</h1></div>"
        },
        "identifier": [
          {
            "use": "official",
            "type": {
              "coding": [
                {
                  "system": "http://terminology.hl7.org/CodeSystem/v2-0203",
                  "code": "NNCHL",
                  "display": "National Person Identifier Chile"
                },
                {
                  "system": "http://registrocivil.cl/RUN",
                  "code": "RUN",
                  "display": "Registro Unico de Nacimiento"
                }
              ]
            },
            "value": "2323900ap"
          }
        ],
        "active": true,
        "name": [
          {
            "use": "official",
            "_family": {
              "extension": [
                {
                  "id": "fathers-family",
                  "url": "http://hl7.org/fhir/StructureDefinition/humanname-fathers-family",
                  "valueString": "Gomez"
                },
                {
                  "id": "mothers-family",
                  "url": "http://hl7.org/fhir/StructureDefinition/humanname-mothers-family",
                  "valueString": "Rodriguez"
                }
              ]
            },
            "given": [
              "Nicolle",
              "Andrea"
            ]
          }
        ],
        "telecom": [
          {
            "system": "phone",
            "value": "+56(2)1111-1111",
            "use": "home"
          },
          {
            "system": "phone",
            "value": "+56(2)2222-2222",
            "use": "mobile"
          },
          {
            "system": "email",
            "value": "grnicolle@example.com"
          }
        ],
        "gender": "female",
        "birthDate": "1989-03-10",
        "qualification": [
          {
            "identifier": [
              {
                "use": "official",
                "type": {
                  "coding": [
                    {
                      "system": "http://terminology.hl7.org/CodeSystem/v2-0203",
                      "code": "MD",
                      "display": "Medical license number"
                    }
                  ]
                },
                "value": "TP454669"
              }
            ],
            "code": {
              "coding": [
                {
                  "system": "http://snomed.info/sct",
                  "code": "309343006",
                  "display": "Médico"
                }
              ]
            }
          },
          {
            "identifier": [
              {
                "use": "official",
                "type": {
                  "coding": [
                    {
                      "system": "http://terminology.hl7.org/CodeSystem/v2-0203",
                      "code": "MD",
                      "display": "Medical license number"
                    }
                  ]
                },
                "value": "TP454669"
              }
            ],
            "code": {
              "coding": [
                {
                  "system": "http://snomed.info/sct",
                  "code": "66862007",
                  "display": "radiologo"
                }
              ]
            }
          }
        ]
      }
    },
    {
      "fullUrl": "http://127.0.0.1:7000/fhir/Organization/Example-Organization-213134sd15148f",
      "resource": {
        "resourceType": "Organization",
        "id": "Example-Organization-213134sd15148f",
        "text": {
          "status": "generated",
          "div": "<div xmlns=\"http://www.w3.org/1999/xhtml\"><h1>SEGMENTO NARRATIVO</h1></div>"
        },
        "identifier": [
          {
            "use": "official",
            "system": "http://www.minsalud.gov.co/codHabilitacion",
            "value": "1100133335-1"
          },
          {
            "use": "official",
            "system": "http://dian.gov.co/nit",
            "value": "12789312-9"
          }
        ],
        "active": true,
        "type": [
          {
            "coding": [
              {
                "system": "http://terminology.hl7.org/CodeSystem/organization-type",
                "code": "prov",
                "display": "Healthcare Provider"
              }
            ]
          }
        ],
        "name": "Indisa clinica de la familia",
        "alias": [
          "INDISA"
        ],
        "telecom": [
          {
            "system": "phone",
            "value": "3430000",
            "use": "work"
          }
        ],
        "address": [
          {
            "use": "work",
            "text": "Av. Sta. María 1810, Santiago, Providencia, Región Metropolitana, Chile",
            "city": "Providencia",
            "state": "Región Metropolitana",
            "postalCode": "2342355",
            "country": "Chile"
          }
        ],
        "contact": [
          {
            "name": {
              "use": "usual",
              "text": "Jairo Rodriguez"
            },
            "telecom": [
              {
                "system": "phone",
                "value": "312222222",
                "use": "work"
              },
              {
                "system": "email",
                "value": "contacto@indisa.com.cl",
                "use": "work"
              }
            ]
          }
        ]
      }
    },
    {
      "fullUrl": "http://127.0.0.1:7000/fhir/DiagnosticReport/Example-DiagnosticReport-Imaging-u584i",
      "resource": {
        "resourceType": "DiagnosticReport",
        "id": "Example-DiagnosticReport-Imaging-u584i",
        "text": {
          "status": "generated",
          "div": "<div xmlns=\"http://www.w3.org/1999/xhtml\"><h1>SEGMENTO NARRATIVO</h1></div>"
        },
        "identifier": [
          {
            "use": "usual",
            "system": "https://example.org/diagnostic-report-identifiers",
            "value": "RXI4376347"
          }
        ],
        "status": "final",
        "category": [
          {
            "coding": [
              {
                "system": "http://terminology.hl7.org/CodeSystem/observation-category",
                "code": "imaging",
                "display": "Imaging"
              },
              {
                "system": "http://snomed.info/sct",
                "code": "363272006",
                "display": "imágenes radiológicas, incidencias y posiciones especiales"
              }
            ]
          }
        ],
        "code": {
          "coding": [
            {
              "system": "http://snomed.info/sct",
              "code": "11634002",
              "display": "radiografía diagnóstica, imágenes en decúbito supino y en bipedestación"
            },
            {
              "system": "https://digitalware-klinic.github.io/fhir/indisa/CodeSystem-CodesFonasa",
              "code": "0401062",
              "display": "Radiografía de Proyecciones especiales oblicuas u otras en hombro, brazo,\n                        codo, rodilla, rótulas, sesamoideos, axial de ambas rótulas o similares"
            }
          ]
        },
        "subject": {
          "reference": "Patient/Example-Patient-87356d0d"
        },
        "effectiveDateTime": "2021-02-25T09:45:00-05:00",
        "imagingStudy": [
          {
            "reference": "ImagingStudy/Example-ImagingStudy-1.2.840.10008.86767.4545.87878.323"
          }
        ],
        "conclusion": "Estudio dentro de parametros normales.",
        "conclusionCode": [
          {
            "coding": [
              {
                "system": "http://snomed.info/sct",
                "code": "48561006",
                "display": "fractura de extremo esternal de la clavícula, no expuesta (trastorno)"
              }
            ]
          }
        ]
      }
    },
    {
      "fullUrl": "http://127.0.0.1:7000/fhir/ImagingStudy/Example-ImagingStudy-1.2.840.10008.86767.4545.87878.323",
      "resource": {
        "resourceType": "ImagingStudy",
        "id": "Example-ImagingStudy-1.2.840.10008.86767.4545.87878.323",
        "text": {
          "status": "generated",
          "div": "<div xmlns=\"http://www.w3.org/1999/xhtml\"><h1>SEGMENTO NARRATIVO</h1></div>"
        },
        "identifier": [
          {
            "use": "usual",
            "system": "https://example.org/imaging-study-identifiers",
            "value": "RIS656565"
          }
        ],
        "status": "available",
        "modality": [
          {
            "system": "http://dicom.nema.org/resources/ontology/DCM",
            "code": "RG",
            "display": "Radiographic imaging"
          }
        ],
        "subject": {
          "reference": "Patient/Example-Patient-87356d0d"
        },
        "interpreter": [
          {
            "reference": "Practitioner/Example-Practitioner-746746379d"
          }
        ],
        "numberOfSeries": 35238,
        "numberOfInstances": 1,
        "reasonCode": [
          {
            "coding": [
              {
                "system": "http://snomed.info/sct",
                "code": "58150001",
                "display": "fractura de clavícula (trastorno)"
              }
            ]
          }
        ],
        "description": "Estudio en parametros normales",
        "series": [
          {
            "uid": "1.2.840.10008.86767.4545.87878.323",
            "number": 35238,
            "modality": {
              "system": "http://dicom.nema.org/resources/ontology/DCM",
              "code": "CR",
              "display": "Computed Radiography"
            },
            "numberOfInstances": 1,
            "bodySite": {
              "system": "http://snomed.info/sct",
              "code": "720616002",
              "display": "estructura ósea de clavícula derecha (estructura corporal)"
            },
            "laterality": {
              "system": "http://snomed.info/sct",
              "code": "419465000",
              "display": "Unilateral right"
            },
            "instance": [
              {
                "uid": "1.2.840.10008.86767.4545.87878.323.35238",
                "sopClass": {
                  "system": "urn:ietf:rfc:3986",
                  "code": "urn:oid:1.2.840.10008.5.1.4.1.1.1",
                  "display": "Computed Radiography Image Storage"
                },
                "number": 1
              }
            ]
          }
        ]
      }
    }
  ]
}