<?xml version="1.0" encoding="UTF-8"?>

<Bundle xmlns="http://hl7.org/fhir">
  <id value="Bundle-Example-Bundle-Document-0ddcb465"/>
  <identifier>
    <system value="http://www.digitalware.com.co/salud/fhir/identifier/documents"/>
    <value value="r909022ir"/>
  </identifier>
  <type value="document"/>
  <timestamp value="2021-02-23T10:00:23-05:00"/>
  <entry>
    <fullUrl value="http://127.0.0.1:7000/fhir/Composition/Example-Document-imagingreport-y787434ir"/>
    <resource>
      <Composition>
        <id value="Example-Document-imagingreport-y787434ir"/>
        <text>
          <status value="generated"/><div xmlns="http://www.w3.org/1999/xhtml"><p><b>Generated Narrative</b></p><p><b>identifier</b>: id: r909022ir</p><p><b>status</b>: final</p><p><b>type</b>: <span title="Codes: {http://loinc.org 18748-4}">Diagnostic imaging study</span></p><p><b>category</b>: <span title="Codes: {http://loinc.org 47045-0}">Study report Document</span></p><p><b>encounter</b>: <a href="#Encounter_Example-Encounter-963y1945">See above (Encounter/Example-Encounter-963y1945)</a></p><p><b>date</b>: Feb 23, 2021 10:00:23 AM</p><p><b>author</b>: <a href="#Practitioner_Example-Practitioner-746746379d">See above (Practitioner/Example-Practitioner-746746379d)</a></p><p><b>title</b>: Reporte Diagnostico de Imagenología</p><p><b>confidentiality</b>: N</p><h3>Attesters</h3><table class="grid"><tr><td>-</td><td><b>Mode</b></td><td><b>Party</b></td></tr><tr><td>*</td><td>professional</td><td><a href="#Practitioner_Example-Practitioner-746746379d">See above (Practitioner/Example-Practitioner-746746379d)</a></td></tr></table><p><b>custodian</b>: <a href="#Organization_Example-Organization-213134sd15148f">See above (Organization/Example-Organization-213134sd15148f)</a></p></div>
        </text>
        <identifier>
          <system value="http://www.digitalware.com.co/salud/fhir/identifier/documents"/>
          <value value="r909022ir"/>
        </identifier>
        <status value="final"/>
        <type>
          <coding>
            <system value="http://loinc.org"/>
            <code value="18748-4"/>
            <display value="Diagnostic imaging study"/>
          </coding>
        </type>
        <category>
          <coding>
            <system value="http://loinc.org"/>
            <code value="47045-0"/>
            <display value="Study report Document"/>
          </coding>
        </category>
        <subject>
          <reference value="Patient/Example-Patient-87356d0d"/>
        </subject>
        <encounter>
          <reference value="Encounter/Example-Encounter-963y1945"/>
        </encounter>
        <date value="2021-02-23T10:00:23-05:00"/>
        <author>
          <reference value="Practitioner/Example-Practitioner-746746379d"/>
        </author>
        <title value="Reporte Diagnostico de Imagenolog&#xED;a"/>
        <confidentiality value="N"/>
        <attester>
          <mode value="professional"/>
          <party>
            <reference value="Practitioner/Example-Practitioner-746746379d"/>
          </party>
        </attester>
        <custodian>
          <reference value="Organization/Example-Organization-213134sd15148f"/>
        </custodian>
        <section>
          <title value="Resultados de Imagenes"/>
          <code>
            <coding>
              <system value="http://loinc.org"/>
              <code value="30954-2"/>
              <display value="Relevant diagnostic tests"/>
            </coding>
          </code>
          <entry>
            <reference value="DiagnosticReport/Example-DiagnosticReport-Imaging-u584i"/>
          </entry>
          <entry>
            <reference value="ImagingStudy/Example-ImagingStudy-1.2.840.10008.86767.4545.87878.323"/>
          </entry>
        </section>
      </Composition>
    </resource>
  </entry>
  <entry>
    <fullUrl value="http://127.0.0.1:7000/fhir/Patient/Example-Patient-87356d0d"/>
    <resource>
      <Patient>
        <id value="Example-Patient-87356d0d"/>
        <text>
          <status value="generated"/><div xmlns="http://www.w3.org/1999/xhtml"><h1>SEGMENTO NARRATIVO</h1></div>
        </text>
        <extension id="GenderIdentity" url="https://digitalware-klinic.github.io/fhir/indisa/StructureDefinition-GenderIdentity">
          <valueCodeableConcept>
            <coding>
              <system value="http://snomed.info/sct"/>
              <code value="703117000"/>
              <display value="Femenino"/>
            </coding>
          </valueCodeableConcept>
        </extension>
        <extension id="BirthPlace" url="https://digitalware-klinic.github.io/fhir/indisa/StructureDefinition-BirthPlace">
          <valueAddress>
            <city value="Santiago de Chile"/>
            <state value="Region Metropolitana"/>
            <country value="Chile"/>
          </valueAddress>
        </extension>
        <extension id="Nationality" url="https://digitalware-klinic.github.io/fhir/indisa/StructureDefinition-Nationality">
          <extension id="code" url="code">
            <valueCodeableConcept>
              <coding>
                <system value="https://www.iso.org/iso-3166-country-codes.html"/>
                <code value="CL"/>
                <display value="Chile"/>
              </coding>
            </valueCodeableConcept>
          </extension>
        </extension>
        <extension id="PatientEthnicity" url="https://digitalware-klinic.github.io/fhir/indisa/StructureDefinition-PatientEthnicity">
          <valueCodeableConcept>
            <coding>
              <system value="http://deis.cl/fhir/PueblosIndigenasMinsalDecreto643"/>
              <code value="01"/>
              <display value="Mapuche"/>
            </coding>
          </valueCodeableConcept>
        </extension>
        <extension id="PatientPopulationGroup" url="https://digitalware-klinic.github.io/fhir/indisa/StructureDefinition-PatientPopulationGroup">
          <valueCodeableConcept>
            <coding>
              <system value="https://digitalware-klinic.github.io/fhir/indisa/CodeSystem-PopulationGroup"/>
              <code value="01"/>
              <display value="Indigenas"/>
            </coding>
          </valueCodeableConcept>
        </extension>
        <extension id="Disability" url="https://digitalware-klinic.github.io/fhir/indisa/StructureDefinition-Disability">
          <valueCodeableConcept>
            <coding>
              <system value="http://snomed.info/sct"/>
              <code value="15929741000119101"/>
              <display value="disfunci&#xF3;n de la mano derecha"/>
            </coding>
          </valueCodeableConcept>
        </extension>
        <extension id="EducationalLevelChile" url="https://digitalware-klinic.github.io/fhir/indisa/StructureDefinition-EducationalLevelChile">
          <valueCodeableConcept>
            <coding>
              <system value="https://digitalware-klinic.github.io/fhir/indisa/CodeSystem-EducationalLevelChile"/>
              <code value="02"/>
              <display value="Basica"/>
            </coding>
          </valueCodeableConcept>
        </extension>
        <extension id="Ocupation" url="https://digitalware-klinic.github.io/fhir/indisa/StructureDefinition-Ocupation">
          <valueCodeableConcept>
            <coding>
              <system value="https://digitalware-klinic.github.io/fhir/indisa/StructureDefinition-Ocupation"/>
              <code value="15"/>
              <display value="Ama de casa"/>
            </coding>
          </valueCodeableConcept>
        </extension>
        <extension id="EmployerOrganization" url="https://digitalware-klinic.github.io/fhir/indisa/StructureDefinition-EmployerOrganization">
          <valueString value="Papeleria el Sol"/>
        </extension>
        <extension id="NewBorn" url="https://digitalware-klinic.github.io/fhir/indisa/StructureDefinition-NewBorn">
          <valueBoolean value="false"/>
        </extension>
        <extension id="Religion" url="https://digitalware-klinic.github.io/fhir/indisa/StructureDefinition-Religion">
          <valueCodeableConcept>
            <coding>
              <system value="http://terminology.hl7.org/CodeSystem/v3-ReligiousAffiliation"/>
              <code value="1041"/>
              <display value="Roman Catholic Church"/>
            </coding>
          </valueCodeableConcept>
        </extension>
        <extension id="CulturalGroup" url="https://digitalware-klinic.github.io/fhir/indisa/StructureDefinition-CulturalGroup">
          <valueCodeableConcept>
            <coding>
              <system value="https://digitalware-klinic.github.io/fhir/indisa/CodeSystem-CulturalGroup"/>
              <code value="Indio Americano"/>
              <display value="1002-5"/>
            </coding>
          </valueCodeableConcept>
        </extension>
        <identifier>
          <use value="official"/>
          <type>
            <coding>
              <system value="http://terminology.hl7.org/CodeSystem/v2-0203"/>
              <code value="NNCHL"/>
              <display value="National Person Identifier Chile"/>
            </coding>
            <coding>
              <system value="http://registrocivil.cl/RUN"/>
              <code value="RUN"/>
              <display value="Rol &#xDA;nico Nacional"/>
            </coding>
          </type>
          <value value="347827348"/>
        </identifier>
        <identifier>
          <use value="usual"/>
          <type>
            <coding>
              <system value="http://terminology.hl7.org/CodeSystem/v2-0203"/>
              <code value="MR"/>
              <display value="Medical Record Number"/>
            </coding>
          </type>
          <system value="https://www.digitalware.com.co/salud/fhir/patient-id"/>
          <value value="HC-6ef0a6d7"/>
        </identifier>
        <active value="true"/>
        <name>
          <use value="official"/>
          <family>
            <extension id="fathers-family" url="http://hl7.org/fhir/StructureDefinition/humanname-fathers-family">
              <valueString value="Jake"/>
            </extension>
            <extension id="mothers-family" url="http://hl7.org/fhir/StructureDefinition/humanname-mothers-family">
              <valueString value="Jofr&#xE9;"/>
            </extension>
          </family>
          <given value="Maria"/>
          <given value="Victoria"/>
        </name>
        <name>
          <use value="nickname"/>
          <text value="Maria Jake"/>
        </name>
        <telecom>
          <system value="phone"/>
          <value value="+56(2)1111-1111"/>
          <use value="home"/>
        </telecom>
        <telecom>
          <system value="phone"/>
          <value value="+56(2)2222-2222"/>
          <use value="mobile"/>
        </telecom>
        <telecom>
          <system value="email"/>
          <value value="jjmaria@example.com"/>
        </telecom>
        <gender value="female"/>
        <birthDate value="1975-08-14"/>
        <deceasedBoolean value="false"/>
        <address>
          <use value="home"/>
          <text value="Eliodoro Y&#xE1;&#xF1;ez NNN, depto XX, Providencia"/>
          <city value="Providencia"/>
          <state value="Regi&#xF3;n Metropolitana"/>
          <postalCode value="5555555"/>
          <country value="Chile"/>
        </address>
        <maritalStatus>
          <coding>
            <system value="http://terminology.hl7.org/CodeSystem/v3-MaritalStatus"/>
            <code value="M"/>
            <display value="Married"/>
          </coding>
        </maritalStatus>
        <contact>
          <extension id="person-id" url="https://digitalware-klinic.github.io/fhir/indisa/StructureDefinition-person-id">
            <valueIdentifier>
              <use value="official"/>
              <type>
                <coding>
                  <system value="http://terminology.hl7.org/CodeSystem/v2-0203"/>
                  <code value="MR"/>
                  <display value="Medical record number"/>
                </coding>
                <coding>
                  <system value="http://registrocivil.cl/RUN"/>
                  <code value="RUN"/>
                  <display value="Rol &#xDA;nico Nacional"/>
                </coding>
              </type>
              <value value="134293887929"/>
            </valueIdentifier>
          </extension>
          <relationship>
            <coding>
              <system value="http://terminology.hl7.org/CodeSystem/v2-0131"/>
              <code value="C"/>
              <display value="Emergency Contact"/>
            </coding>
            <coding>
              <system value="http://snomed.info/sct"/>
              <code value="66839005"/>
              <display value="padre"/>
            </coding>
          </relationship>
          <name>
            <text value="Jorge Jake"/>
          </name>
          <telecom>
            <system value="phone"/>
            <value value="+56(2)2222-2222"/>
            <use value="mobile"/>
          </telecom>
          <telecom>
            <system value="email"/>
            <value value="jjorge@example.com"/>
          </telecom>
          <address>
            <use value="home"/>
            <text value="Eliodoro Y&#xE1;&#xF1;ez NNN, depto XX, Providencia"/>
            <city value="Providencia"/>
            <state value="Regi&#xF3;n Metropolitana"/>
            <postalCode value="5555555"/>
            <country value="Chile"/>
          </address>
        </contact>
      </Patient>
    </resource>
  </entry>
  <entry>
    <fullUrl value="http://127.0.0.1:7000/fhir/Encounter/Example-Encounter-963y1945"/>
    <resource>
      <Encounter>
        <id value="Example-Encounter-963y1945"/>
        <text>
          <status value="generated"/><div xmlns="http://www.w3.org/1999/xhtml"><h1>SEGMENTO NARRATIVO</h1></div>
        </text>
        <extension id="RateModality" url="https://digitalware-klinic.github.io/fhir/indisa/StructureDefinition-RateModality">
          <valueCoding>
            <system value="https://digitalware-klinic.github.io/fhir/indisa/CodeSystem-RatesModalityINDISA"/>
            <code value="cerrada"/>
            <display value="cerrada/preferent"/>
          </valueCoding>
        </extension>
        <identifier>
          <use value="official"/>
          <system value="https://example.org/encounter-identifiers"/>
          <value value="56386090"/>
        </identifier>
        <status value="finished"/>
        <statusHistory>
          <status value="arrived"/>
          <period>
            <start value="2021-01-21T07:00:00-05:00"/>
            <end value="2021-01-21T07:10:00-05:00"/>
          </period>
        </statusHistory>
        <statusHistory>
          <status value="in-progress"/>
          <period>
            <start value="2021-01-21T07:10:00-05:00"/>
            <end value="2021-01-23T10:45:00-05:00"/>
          </period>
        </statusHistory>
        <statusHistory>
          <status value="finished"/>
          <period>
            <start value="2021-01-23T10:45:00-05:00"/>
            <end value="2021-01-23T11:00:00-05:00"/>
          </period>
        </statusHistory>
        <class>
          <system value="http://terminology.hl7.org/CodeSystem/v3-ActCode"/>
          <code value="IMP"/>
          <display value="inpatient encounter"/>
        </class>
        <serviceType>
          <coding>
            <system value="http://terminology.hl7.org/CodeSystem/service-type"/>
            <code value="410"/>
            <display value="Pregnancy"/>
          </coding>
        </serviceType>
        <priority>
          <coding>
            <system value="http://terminology.hl7.org/CodeSystem/v3-ActPriority"/>
            <code value="EL"/>
            <display value="elective"/>
          </coding>
        </priority>
        <subject>
          <reference value="Patient/Example-Patient-87356d0d"/>
        </subject>
        <participant>
          <type>
            <coding>
              <system value="http://terminology.hl7.org/CodeSystem/v3-ParticipationType"/>
              <code value="CON"/>
              <display value="Consultant"/>
            </coding>
          </type>
        </participant>
        <period>
          <start value="2021-01-21T07:00:00-05:00"/>
          <end value="2021-01-23T11:00:00-05:00"/>
        </period>
        <reasonCode>
          <coding>
            <system value="http://snomed.info/sct"/>
            <code value="888003"/>
            <display value="Efecto fetal o neonatal de la p&#xE9;rdida de sangre materna"/>
          </coding>
        </reasonCode>
        <hospitalization>
          <preAdmissionIdentifier>
            <value value="6037c96f1b3e"/>
          </preAdmissionIdentifier>
          <admitSource>
            <coding>
              <system value="http://terminology.hl7.org/CodeSystem/admit-source"/>
              <code value="outp"/>
              <display value="From outpatient department"/>
            </coding>
          </admitSource>
          <specialCourtesy>
            <coding>
              <system value="http://terminology.hl7.org/CodeSystem/v3-EncounterSpecialCourtesy"/>
              <code value="VIP"/>
              <display value="very important person"/>
            </coding>
          </specialCourtesy>
          <dischargeDisposition>
            <coding>
              <system value="https://digitalware-klinic.github.io/fhir/indisa/CodeSystem-DischargeDisposition"/>
              <code value="home"/>
              <display value="home"/>
            </coding>
          </dischargeDisposition>
        </hospitalization>
        <serviceProvider>
          <reference value="Organization/Example-Organization-213134sd15148f"/>
        </serviceProvider>
      </Encounter>
    </resource>
  </entry>
  <entry>
    <fullUrl value="http://127.0.0.1:7000/fhir/Practitioner/Example-Practitioner-746746379d"/>
    <resource>
      <Practitioner>
        <id value="Example-Practitioner-746746379d"/>
        <text>
          <status value="generated"/><div xmlns="http://www.w3.org/1999/xhtml"><h1>SEGMENTO NARRATIVO</h1></div>
        </text>
        <identifier>
          <use value="official"/>
          <type>
            <coding>
              <system value="http://terminology.hl7.org/CodeSystem/v2-0203"/>
              <code value="NNCHL"/>
              <display value="National Person Identifier Chile"/>
            </coding>
            <coding>
              <system value="http://registrocivil.cl/RUN"/>
              <code value="RUN"/>
              <display value="Registro Unico de Nacimiento"/>
            </coding>
          </type>
          <value value="2323900ap"/>
        </identifier>
        <active value="true"/>
        <name>
          <use value="official"/>
          <family>
            <extension id="fathers-family" url="http://hl7.org/fhir/StructureDefinition/humanname-fathers-family">
              <valueString value="Gomez"/>
            </extension>
            <extension id="mothers-family" url="http://hl7.org/fhir/StructureDefinition/humanname-mothers-family">
              <valueString value="Rodriguez"/>
            </extension>
          </family>
          <given value="Nicolle"/>
          <given value="Andrea"/>
        </name>
        <telecom>
          <system value="phone"/>
          <value value="+56(2)1111-1111"/>
          <use value="home"/>
        </telecom>
        <telecom>
          <system value="phone"/>
          <value value="+56(2)2222-2222"/>
          <use value="mobile"/>
        </telecom>
        <telecom>
          <system value="email"/>
          <value value="grnicolle@example.com"/>
        </telecom>
        <gender value="female"/>
        <birthDate value="1989-03-10"/>
        <qualification>
          <identifier>
            <use value="official"/>
            <type>
              <coding>
                <system value="http://terminology.hl7.org/CodeSystem/v2-0203"/>
                <code value="MD"/>
                <display value="Medical license number"/>
              </coding>
            </type>
            <value value="TP454669"/>
          </identifier>
          <code>
            <coding>
              <system value="http://snomed.info/sct"/>
              <code value="309343006"/>
              <display value="M&#xE9;dico"/>
            </coding>
          </code>
        </qualification>
        <qualification>
          <identifier>
            <use value="official"/>
            <type>
              <coding>
                <system value="http://terminology.hl7.org/CodeSystem/v2-0203"/>
                <code value="MD"/>
                <display value="Medical license number"/>
              </coding>
            </type>
            <value value="TP454669"/>
          </identifier>
          <code>
            <coding>
              <system value="http://snomed.info/sct"/>
              <code value="66862007"/>
              <display value="radiologo"/>
            </coding>
          </code>
        </qualification>
      </Practitioner>
    </resource>
  </entry>
  <entry>
    <fullUrl value="http://127.0.0.1:7000/fhir/Organization/Example-Organization-213134sd15148f"/>
    <resource>
      <Organization>
        <id value="Example-Organization-213134sd15148f"/>
        <text>
          <status value="generated"/><div xmlns="http://www.w3.org/1999/xhtml"><h1>SEGMENTO NARRATIVO</h1></div>
        </text>
        <identifier>
          <use value="official"/>
          <system value="http://www.minsalud.gov.co/codHabilitacion"/>
          <value value="1100133335-1"/>
        </identifier>
        <identifier>
          <use value="official"/>
          <system value="http://dian.gov.co/nit"/>
          <value value="12789312-9"/>
        </identifier>
        <active value="true"/>
        <type>
          <coding>
            <system value="http://terminology.hl7.org/CodeSystem/organization-type"/>
            <code value="prov"/>
            <display value="Healthcare Provider"/>
          </coding>
        </type>
        <name value="Indisa clinica de la familia"/>
        <alias value="INDISA"/>
        <telecom>
          <system value="phone"/>
          <value value="3430000"/>
          <use value="work"/>
        </telecom>
        <address>
          <use value="work"/>
          <text value="Av. Sta. Mar&#xED;a 1810, Santiago, Providencia, Regi&#xF3;n Metropolitana, Chile"/>
          <city value="Providencia"/>
          <state value="Regi&#xF3;n Metropolitana"/>
          <postalCode value="2342355"/>
          <country value="Chile"/>
        </address>
        <contact>
          <name>
            <use value="usual"/>
            <text value="Jairo Rodriguez"/>
          </name>
          <telecom>
            <system value="phone"/>
            <value value="312222222"/>
            <use value="work"/>
          </telecom>
          <telecom>
            <system value="email"/>
            <value value="contacto@indisa.com.cl"/>
            <use value="work"/>
          </telecom>
        </contact>
      </Organization>
    </resource>
  </entry>
  <entry>
    <fullUrl value="http://127.0.0.1:7000/fhir/DiagnosticReport/Example-DiagnosticReport-Imaging-u584i"/>
    <resource>
      <DiagnosticReport>
        <id value="Example-DiagnosticReport-Imaging-u584i"/>
        <text>
          <status value="generated"/><div xmlns="http://www.w3.org/1999/xhtml"><h1>SEGMENTO NARRATIVO</h1></div>
        </text>
        <identifier>
          <use value="usual"/>
          <system value="https://example.org/diagnostic-report-identifiers"/>
          <value value="RXI4376347"/>
        </identifier>
        <status value="final"/>
        <category>
          <coding>
            <system value="http://terminology.hl7.org/CodeSystem/observation-category"/>
            <code value="imaging"/>
            <display value="Imaging"/>
          </coding>
          <coding>
            <system value="http://snomed.info/sct"/>
            <code value="363272006"/>
            <display value="im&#xE1;genes radiol&#xF3;gicas, incidencias y posiciones especiales"/>
          </coding>
        </category>
        <code>
          <coding>
            <system value="http://snomed.info/sct"/>
            <code value="11634002"/>
            <display value="radiograf&#xED;a diagn&#xF3;stica, im&#xE1;genes en dec&#xFA;bito supino y en bipedestaci&#xF3;n"/>
          </coding>
          <coding>
            <system value="https://digitalware-klinic.github.io/fhir/indisa/CodeSystem-CodesFonasa"/>
            <code value="0401062"/>
            <display value="Radiograf&#xED;a de Proyecciones especiales oblicuas u otras en hombro, brazo,&#xA;                        codo, rodilla, r&#xF3;tulas, sesamoideos, axial de ambas r&#xF3;tulas o similares"/>
          </coding>
        </code>
        <subject>
          <reference value="Patient/Example-Patient-87356d0d"/>
        </subject>
        <effectiveDateTime value="2021-02-25T09:45:00-05:00"/>
        <imagingStudy>
          <reference value="ImagingStudy/Example-ImagingStudy-1.2.840.10008.86767.4545.87878.323"/>
        </imagingStudy>
        <conclusion value="Estudio dentro de parametros normales."/>
        <conclusionCode>
          <coding>
            <system value="http://snomed.info/sct"/>
            <code value="48561006"/>
            <display value="fractura de extremo esternal de la clav&#xED;cula, no expuesta (trastorno)"/>
          </coding>
        </conclusionCode>
      </DiagnosticReport>
    </resource>
  </entry>
  <entry>
    <fullUrl value="http://127.0.0.1:7000/fhir/ImagingStudy/Example-ImagingStudy-1.2.840.10008.86767.4545.87878.323"/>
    <resource>
      <ImagingStudy>
        <id value="Example-ImagingStudy-1.2.840.10008.86767.4545.87878.323"/>
        <text>
          <status value="generated"/><div xmlns="http://www.w3.org/1999/xhtml"><h1>SEGMENTO NARRATIVO</h1></div>
        </text>
        <identifier>
          <use value="usual"/>
          <system value="https://example.org/imaging-study-identifiers"/>
          <value value="RIS656565"/>
        </identifier>
        <status value="available"/>
        <modality>
          <system value="http://dicom.nema.org/resources/ontology/DCM"/>
          <code value="RG"/>
          <display value="Radiographic imaging"/>
        </modality>
        <subject>
          <reference value="Patient/Example-Patient-87356d0d"/>
        </subject>
        <interpreter>
          <reference value="Practitioner/Example-Practitioner-746746379d"/>
        </interpreter>
        <numberOfSeries value="35238"/>
        <numberOfInstances value="1"/>
        <reasonCode>
          <coding>
            <system value="http://snomed.info/sct"/>
            <code value="58150001"/>
            <display value="fractura de clav&#xED;cula (trastorno)"/>
          </coding>
        </reasonCode>
        <description value="Estudio en parametros normales"/>
        <series>
          <uid value="1.2.840.10008.86767.4545.87878.323"/>
          <number value="35238"/>
          <modality>
            <system value="http://dicom.nema.org/resources/ontology/DCM"/>
            <code value="CR"/>
            <display value="Computed Radiography"/>
          </modality>
          <numberOfInstances value="1"/>
          <bodySite>
            <system value="http://snomed.info/sct"/>
            <code value="720616002"/>
            <display value="estructura &#xF3;sea de clav&#xED;cula derecha (estructura corporal)"/>
          </bodySite>
          <laterality>
            <system value="http://snomed.info/sct"/>
            <code value="419465000"/>
            <display value="Unilateral right"/>
          </laterality>
          <instance>
            <uid value="1.2.840.10008.86767.4545.87878.323.35238"/>
            <sopClass>
              <system value="urn:ietf:rfc:3986"/>
              <code value="urn:oid:1.2.840.10008.5.1.4.1.1.1"/>
              <display value="Computed Radiography Image Storage"/>
            </sopClass>
            <number value="1"/>
          </instance>
        </series>
      </ImagingStudy>
    </resource>
  </entry>
</Bundle>